thisN,thisTrialN,thisRepN,key_resp_control.keys,key_resp_control.rt,key_resp_control.duration,key_resp_20.keys,key_resp_20.rt,key_resp_20.duration,key_resp_30.keys,key_resp_30.rt,key_resp_30.duration,key_resp_bundling.keys,key_resp_bundling.rt,key_resp_bundling.duration,trialsControl.thisRepN,trialsControl.thisTrialN,trialsControl.thisN,trialsControl.thisIndex,trials20.thisRepN,trials20.thisTrialN,trials20.thisN,trials20.thisIndex,trials30.thisRepN,trials30.thisTrialN,trials30.thisN,trials30.thisIndex,trialsBundling.thisRepN,trialsBundling.thisTrialN,trialsBundling.thisN,trialsBundling.thisIndex,thisRow.t,notes,WelcomeScreen.started,textWelcScreen.started,textWelcScreen.stopped,textWelcMessage.started,key_respStart.started,WelcomeScreen.stopped,key_respStart.keys,key_respStart.rt,key_respStart.duration,trialControl.started,image_control.started,key_resp_control.started,trialControl.stopped,Image,Selected_Plan,trialsControl.key_resp_control.keys,trialsControl.key_resp_control.rt,trialsControl.key_resp_control.duration,blank500.started,textblank500.started,blank500.stopped,textblank500.stopped,trial20.started,image_20.started,key_resp_20.started,trial20.stopped,Image_20,Selected_Plan_20,trials20.key_resp_20.keys,trials20.key_resp_20.rt,trials20.key_resp_20.duration,trial30.started,image_30.started,key_resp_30.started,trial30.stopped,Image_30,Selected_Plan_30,trials30.key_resp_30.keys,trials30.key_resp_30.rt,trials30.key_resp_30.duration,trialBundling.started,image_bundling.started,key_resp_bundling.started,trialBundling.stopped,Image_Bundling,Selected_Plan_Bundling,trialsBundling.key_resp_bundling.keys,trialsBundling.key_resp_bundling.rt,trialsBundling.key_resp_bundling.duration,EndScreen.started,textEndScreen.started,key_respEnd.started,EndScreen.stopped,key_respEnd.keys,key_respEnd.rt,key_respEnd.duration,participant,session,date,expName,psychopyVersion,frameRate,expStart,
,,,,,,,,,,,,,,,,,,,,,,,,,,,,,,,,,0.032784582988824695,0.10205708300054539,2.093689582994557,2.093689582994557,2.994649832995492,109.37433483300265,space,106.36970662500244,None,,,,,,,,,,,,,,,,,,,,,,,,,,,,,,,,,,,,,,,,,,,,,,,,42015,001,2025-03-28_17h42.05.261,RES501,2024.2.4,119.95837443434361,2025-03-28 17h42.29.001951 +0530,
0,0,0,2,336.34341499999573,None,,,,,,,,,,0,0,0,0,,,,,,,,,,,,,109.53611087499303,,,,,,,,,,,109.47403008300171,109.53611087499303,109.57133270800114,445.9510282909905,HotstarControl.jpg,Plan 2,2,336.34341499999573,None,445.95295862499916,446.0918287910026,446.46233941600076,,,,,,,,,,,,,,,,,,,,,,,,,,,,,,,,,,,,42015,001,2025-03-28_17h42.05.261,RES501,2024.2.4,119.95837443434361,2025-03-28 17h42.29.001951 +0530,
1,0,1,2,22.045059915995807,None,,,,,,,,,,1,0,1,0,,,,,,,,,,,,,446.54267333299504,,,,,,,,,,,446.5327953329979,446.54267333299504,446.6455077499995,468.7051788749959,CrunchyrollControl.jpg,Plan 2,2,22.045059915995807,None,468.705911165991,468.72485383300227,469.21252062499116,,,,,,,,,,,,,,,,,,,,,,,,,,,,,,,,,,,,42015,001,2025-03-28_17h42.05.261,RES501,2024.2.4,119.95837443434361,2025-03-28 17h42.29.001951 +0530,
2,0,2,4,13.867987292003818,None,,,,,,,,,,2,0,2,0,,,,,,,,,,,,,469.2707507079904,,,,,,,,,,,469.26027262498974,469.2707507079904,469.4022297499905,483.2790287909884,NetflixControl.jpg,Plan 4,4,13.867987292003818,None,483.27914504100045,483.2862524999946,483.7792399579921,483.8062853329902,,,,,,,,,,,,,,,,,,,,,,,,,,,,,,,,,,,42015,001,2025-03-28_17h42.05.261,RES501,2024.2.4,119.95837443434361,2025-03-28 17h42.29.001951 +0530,
3,0,3,2,26.439439541005413,None,,,,,,,,,,3,0,3,0,,,,,,,,,,,,,483.8062853329902,,,,,,,,,,,483.79935454099905,483.8062853329902,483.96922816599545,510.4162290410022,Zee5Control.jpg,Plan 2,2,26.439439541005413,None,510.4170661249955,510.42358529099147,510.9133352499921,510.97927795800206,,,,,,,,,,,,,,,,,,,,,,,,,,,,,,,,,,,42015,001,2025-03-28_17h42.05.261,RES501,2024.2.4,119.95837443434361,2025-03-28 17h42.29.001951 +0530,
4,0,4,2,16.460976083995774,None,,,,,,,,,,4,0,4,0,,,,,,,,,,,,,510.97927795800206,,,,,,,,,,,510.9706043329934,510.97927795800206,511.1118593329884,527.5885263749951,SonyLivControl.jpg,Plan 2,2,16.460976083995774,None,527.5920017079916,527.611510207993,528.0956114579894,,,,,,,,,,,,,,,,,,,,,,,,,,,,,,,,,,,,42015,001,2025-03-28_17h42.05.261,RES501,2024.2.4,119.95837443434361,2025-03-28 17h42.29.001951 +0530,
5,0,5,1,4.337835709011415,None,,,,,,,,,,5,0,5,0,,,,,,,,,,,,,528.1326975409902,,,,,,,,,,,528.1261449159938,528.1326975409902,528.285319165996,532.6306009580003,AppleOneControl.jpg,Plan 1,1,4.337835709011415,None,532.630743791,532.6388099159958,533.1295255000005,533.135236874994,,,,,,,,,,,,,,,,,,,,,,,,,,,,,,,,,,,42015,001,2025-03-28_17h42.05.261,RES501,2024.2.4,119.95837443434361,2025-03-28 17h42.29.001951 +0530,
,,,,,,,,,,,,,,,,,,,,,,,,,,,,,,,,,,,,,,,,,,,,,,,,,,,533.1297401249903,533.135236874994,533.6195960409968,533.6669309579884,,,,,,,,,,,,,,,,,,,,,,,,,,,,,,,,,,,42015,001,2025-03-28_17h42.05.261,RES501,2024.2.4,119.95837443434361,2025-03-28 17h42.29.001951 +0530,
0,0,0,,,,4,8.859201291998033,None,,,,,,,,,,,0,0,0,0,,,,,,,,,533.6669309579884,,,,,,,,,,,,,,,,,,,,542.6970783750003,542.7047332079965,543.196320374991,543.2471791659918,533.6576362499909,533.6669309579884,533.8287389999896,542.6969267079985,Netflix20.jpg,Plan 4,4,8.859201291998033,None,,,,,,,,,,,,,,,,,,,,,,,,,,42015,001,2025-03-28_17h42.05.261,RES501,2024.2.4,119.95837443434361,2025-03-28 17h42.29.001951 +0530,
1,0,1,,,,2,13.29901729201083,None,,,,,,,,,,,1,0,1,0,,,,,,,,,543.2471791659918,,,,,,,,,,,,,,,,,,,,556.7052594999986,556.7183837909979,557.2025893329992,557.2471852500021,543.2404702079948,543.2471791659918,543.3953380409948,556.7046103329922,SonyLiv20.jpg,Plan 2,2,13.29901729201083,None,,,,,,,,,,,,,,,,,,,,,,,,,,42015,001,2025-03-28_17h42.05.261,RES501,2024.2.4,119.95837443434361,2025-03-28 17h42.29.001951 +0530,
2,0,2,,,,2,4.519965709012467,None,,,,,,,,,,,2,0,2,0,,,,,,,,,557.2471852500021,,,,,,,,,,,,,,,,,,,,561.930221290997,561.93725024999,562.4295694999892,562.4565858749993,557.2400675410026,557.2471852500021,557.4023505829973,561.9301114159898,Hotstar20.jpg,Plan 2,2,4.519965709012467,None,,,,,,,,,,,,,,,,,,,,,,,,,,42015,001,2025-03-28_17h42.05.261,RES501,2024.2.4,119.95837443434361,2025-03-28 17h42.29.001951 +0530,
3,0,3,,,,1,2.0596242080064258,None,,,,,,,,,,,3,0,3,0,,,,,,,,,562.4565858749993,,,,,,,,,,,,,,,,,,,,564.6972471249901,564.7056592500012,565.1961119579937,565.2231658329983,562.4497906659963,562.4565858749993,562.6288782499905,564.6971010409907,AppleOne20.jpg,Plan 1,1,2.0596242080064258,None,,,,,,,,,,,,,,,,,,,,,,,,,,42015,001,2025-03-28_17h42.05.261,RES501,2024.2.4,119.95837443434361,2025-03-28 17h42.29.001951 +0530,
4,0,4,,,,2,3.0386188330012374,None,,,,,,,,,,,4,0,4,0,,,,,,,,,565.2231658329983,,,,,,,,,,,,,,,,,,,,568.4391065829986,568.4499258329888,568.9360638749931,568.9696234579897,565.2163462909957,565.2231658329983,565.3954350829881,568.4389892499894,Zee520.jpg,Plan 2,2,3.0386188330012374,None,,,,,,,,,,,,,,,,,,,,,,,,,,42015,001,2025-03-28_17h42.05.261,RES501,2024.2.4,119.95837443434361,2025-03-28 17h42.29.001951 +0530,
5,0,5,,,,2,6.038006249989849,None,,,,,,,,,,,5,0,5,0,,,,,,,,,568.9696234579897,,,,,,,,,,,,,,,,,,,,575.1804813329945,575.1883727910026,575.6798258749914,575.6861213749944,568.9624650409969,568.9696234579897,569.1358447910025,575.1803090409958,Crunchyroll20.jpg,Plan 2,2,6.038006249989849,None,,,,,,,,,,,,,,,,,,,,,,,,,,42015,001,2025-03-28_17h42.05.261,RES501,2024.2.4,119.95837443434361,2025-03-28 17h42.29.001951 +0530,
,,,,,,,,,,,,,,,,,,,,,,,,,,,,,,,,,,,,,,,,,,,,,,,,,,,575.6800197909906,575.6861213749944,576.1799566249974,576.2076014999911,,,,,,,,,,,,,,,,,,,,,,,,,,,,,,,,,,,42015,001,2025-03-28_17h42.05.261,RES501,2024.2.4,119.95837443434361,2025-03-28 17h42.29.001951 +0530,
0,0,0,,,,,,,1,1.7251719160121866,None,,,,,,,,,,,,0,0,0,0,,,,,576.2076014999911,,,,,,,,,,,,,,,,,,,,578.1304764579982,578.1387388750009,578.6300292499945,578.6814063329948,,,,,,,,,,576.2004267500015,576.2076014999911,576.3964095409901,578.1303342079918,AppleOne30.jpg,Plan 1,1,1.7251719160121866,None,,,,,,,,,,,,,,,,,42015,001,2025-03-28_17h42.05.261,RES501,2024.2.4,119.95837443434361,2025-03-28 17h42.29.001951 +0530,
1,0,1,,,,,,,2,9.35513629099296,None,,,,,,,,,,,,1,0,1,0,,,,,578.6814063329948,,,,,,,,,,,,,,,,,,,,588.2009407079895,588.211622791001,588.6968508329883,588.7474490829918,,,,,,,,,,578.6745649160002,578.6814063329948,578.8287917499983,588.2001695409999,SonyLiv30.jpg,Plan 2,2,9.35513629099296,None,,,,,,,,,,,,,,,,,42015,001,2025-03-28_17h42.05.261,RES501,2024.2.4,119.95837443434361,2025-03-28 17h42.29.001951 +0530,
2,0,2,,,,,,,2,7.711517667004955,None,,,,,,,,,,,,2,0,2,0,,,,,588.7474490829918,,,,,,,,,,,,,,,,,,,,596.6143264999992,596.6231007909955,597.113396582994,597.1433482499997,,,,,,,,,,588.740164666,588.7474490829918,588.8957280829927,596.6141676249972,Crunchyroll30.jpg,Plan 2,2,7.711517667004955,None,,,,,,,,,,,,,,,,,42015,001,2025-03-28_17h42.05.261,RES501,2024.2.4,119.95837443434361,2025-03-28 17h42.29.001951 +0530,
3,0,3,,,,,,,2,1.1777457499993034,None,,,,,,,,,,,,3,0,3,0,,,,,597.1433482499997,,,,,,,,,,,,,,,,,,,,598.4975957080023,598.5056969579891,598.9970637499937,599.0404409159964,,,,,,,,,,597.1364810829982,597.1433482499997,597.3124627910001,598.4973997909983,Zee530.jpg,Plan 2,2,1.1777457499993034,None,,,,,,,,,,,,,,,,,42015,001,2025-03-28_17h42.05.261,RES501,2024.2.4,119.95837443434361,2025-03-28 17h42.29.001951 +0530,
4,0,4,,,,,,,4,4.789792750001652,None,,,,,,,,,,,,4,0,4,0,,,,,599.0404409159964,,,,,,,,,,,,,,,,,,,,603.9887277079979,603.9973076250026,604.4868271659943,604.5247182500025,,,,,,,,,,599.0315724579996,599.0404409159964,599.1957467499888,603.9886074999959,Netflix30.jpg,Plan 4,4,4.789792750001652,None,,,,,,,,,,,,,,,,,42015,001,2025-03-28_17h42.05.261,RES501,2024.2.4,119.95837443434361,2025-03-28 17h42.29.001951 +0530,
5,0,5,,,,,,,3,10.123963999998523,None,,,,,,,,,,,,5,0,5,0,,,,,604.5247182500025,,,,,,,,,,,,,,,,,,,,614.8157106659928,614.8228444999986,615.3134551659896,615.319074375002,,,,,,,,,,604.5167782909994,604.5247182500025,604.686194540991,614.8152077080013,Hotstar30.jpg,Plan 3,3,10.123963999998523,None,,,,,,,,,,,,,,,,,42015,001,2025-03-28_17h42.05.261,RES501,2024.2.4,119.95837443434361,2025-03-28 17h42.29.001951 +0530,
,,,,,,,,,,,,,,,,,,,,,,,,,,,,,,,,,,,,,,,,,,,,,,,,,,,615.3137384159927,615.319074375002,615.802830665998,615.8477382909914,,,,,,,,,,,,,,,,,,,,,,,,,,,,,,,,,,,42015,001,2025-03-28_17h42.05.261,RES501,2024.2.4,119.95837443434361,2025-03-28 17h42.29.001951 +0530,
0,0,0,,,,,,,,,,1,1.1271797079971293,None,,,,,,,,,,,,,0,0,0,0,615.8477382909914,,,,,,,,,,,,,,,,,,,,617.1476193749986,617.1552457079961,617.6470327080024,617.6913802909985,,,,,,,,,,,,,,,,,,,615.8394713329908,615.8477382909914,616.0126725829905,617.1474517909955,AppleOneBundling.jpg,Plan 1,1,1.1271797079971293,None,,,,,,,,42015,001,2025-03-28_17h42.05.261,RES501,2024.2.4,119.95837443434361,2025-03-28 17h42.29.001951 +0530,
1,0,1,,,,,,,,,,4,4.742174166996847,None,,,,,,,,,,,,,1,0,1,0,617.6913802909985,,,,,,,,,,,,,,,,,,,,622.5882509160001,622.5958484159928,623.0800027499936,623.1073883329955,,,,,,,,,,,,,,,,,,,617.6841620409978,617.6913802909985,617.8407236249914,622.58816449999,NetflixBundling.jpg,Plan 4,4,4.742174166996847,None,,,,,,,,42015,001,2025-03-28_17h42.05.261,RES501,2024.2.4,119.95837443434361,2025-03-28 17h42.29.001951 +0530,
2,0,2,,,,,,,,,,2,3.8702146249997895,None,,,,,,,,,,,,,2,0,2,0,623.1073883329955,,,,,,,,,,,,,,,,,,,,627.1648655829922,627.173221124991,627.6640886249952,627.7053201660019,,,,,,,,,,,,,,,,,,,623.100334207993,623.1073883329955,623.2861681249924,627.1647215830017,HotstarBundling.jpg,Plan 2,2,3.8702146249997895,None,,,,,,,,42015,001,2025-03-28_17h42.05.261,RES501,2024.2.4,119.95837443434361,2025-03-28 17h42.29.001951 +0530,
3,0,3,,,,,,,,,,2,9.71205000000191,None,,,,,,,,,,,,,3,0,3,0,627.7053201660019,,,,,,,,,,,,,,,,,,,,637.5825002499914,637.592334624991,638.081095415997,638.117725374992,,,,,,,,,,,,,,,,,,,627.6975023330015,627.7053201660019,627.8629388749978,637.5820894999924,SonyLivBundling.jpg,Plan 2,2,9.71205000000191,None,,,,,,,,42015,001,2025-03-28_17h42.05.261,RES501,2024.2.4,119.95837443434361,2025-03-28 17h42.29.001951 +0530,
4,0,4,,,,,,,,,,2,1.3978959579981165,None,,,,,,,,,,,,,4,0,4,0,638.117725374992,,,,,,,,,,,,,,,,,,,,639.6814296660013,639.6868690830015,640.1704054159927,640.1988671659929,,,,,,,,,,,,,,,,,,,638.1095630409982,638.117725374992,638.2790342910012,639.681253666,CrunchyrollBundling.jpg,Plan 2,2,1.3978959579981165,None,,,,,,,,42015,001,2025-03-28_17h42.05.261,RES501,2024.2.4,119.95837443434361,2025-03-28 17h42.29.001951 +0530,
5,0,5,,,,,,,,,,1,1.5104042499879142,None,,,,,,,,,,,,,5,0,5,0,640.1988671659929,,,,,,,,,,,,,,,,,,,,641.8984472079901,641.9038093749987,642.3965427910007,642.4016619579925,,,,,,,,,,,,,,,,,,,640.1914644999924,640.1988671659929,640.3797364999918,641.8983663749968,Zee5Bundling.jpg,Plan 1,1,1.5104042499879142,None,,,,,,,,42015,001,2025-03-28_17h42.05.261,RES501,2024.2.4,119.95837443434361,2025-03-28 17h42.29.001951 +0530,
,,,,,,,,,,,,,,,,,,,,,,,,,,,,,,,,,,,,,,,,,,,,,,,,,,,642.3966004999966,642.4016619579925,642.8854838330008,642.9019282079971,,,,,,,,,,,,,,,,,,,,,,,,,,,,,,,,,,,42015,001,2025-03-28_17h42.05.261,RES501,2024.2.4,119.95837443434361,2025-03-28 17h42.29.001951 +0530,
,,,,,,,,,,,,,,,,,,,,,,,,,,,,,,,,,,,,,,,,,,,,,,,,,,,,,,,,,,,,,,,,,,,,,,,,,,,,,,,,,,642.8855275410024,642.9019282079971,643.8969296659925,654.431665415992,space,10.531161125007202,None,42015,001,2025-03-28_17h42.05.261,RES501,2024.2.4,119.95837443434361,2025-03-28 17h42.29.001951 +0530,
