thisN,thisTrialN,thisRepN,key_resp_control.keys,key_resp_control.rt,key_resp_control.duration,key_resp_20.keys,key_resp_20.rt,key_resp_20.duration,key_resp_30.keys,key_resp_30.rt,key_resp_30.duration,key_resp_bundling.keys,key_resp_bundling.rt,key_resp_bundling.duration,trialsControl.thisRepN,trialsControl.thisTrialN,trialsControl.thisN,trialsControl.thisIndex,trials20.thisRepN,trials20.thisTrialN,trials20.thisN,trials20.thisIndex,trials30.thisRepN,trials30.thisTrialN,trials30.thisN,trials30.thisIndex,trialsBundling.thisRepN,trialsBundling.thisTrialN,trialsBundling.thisN,trialsBundling.thisIndex,thisRow.t,notes,WelcomeScreen.started,textWelcScreen.started,textWelcScreen.stopped,textWelcMessage.started,key_respStart.started,WelcomeScreen.stopped,key_respStart.keys,key_respStart.rt,key_respStart.duration,trialControl.started,image_control.started,key_resp_control.started,trialControl.stopped,Image,Selected_Plan,trialsControl.key_resp_control.keys,trialsControl.key_resp_control.rt,trialsControl.key_resp_control.duration,blank500.started,textblank500.started,blank500.stopped,textblank500.stopped,trial20.started,image_20.started,key_resp_20.started,trial20.stopped,Image_20,Selected_Plan_20,trials20.key_resp_20.keys,trials20.key_resp_20.rt,trials20.key_resp_20.duration,trial30.started,image_30.started,key_resp_30.started,trial30.stopped,Image_30,Selected_Plan_30,trials30.key_resp_30.keys,trials30.key_resp_30.rt,trials30.key_resp_30.duration,trialBundling.started,image_bundling.started,key_resp_bundling.started,trialBundling.stopped,Image_Bundling,Selected_Plan_Bundling,trialsBundling.key_resp_bundling.keys,trialsBundling.key_resp_bundling.rt,trialsBundling.key_resp_bundling.duration,EndScreen.started,textEndScreen.started,key_respEnd.started,EndScreen.stopped,key_respEnd.keys,key_respEnd.rt,key_respEnd.duration,participant,session,date,expName,psychopyVersion,frameRate,expStart,
,,,,,,,,,,,,,,,,,,,,,,,,,,,,,,,,,0.008989500114694238,0.028372500091791153,2.02752080000937,2.112031999975443,3.0091852000914514,24.098357300041243,space,21.07296620006673,None,,,,,,,,,,,,,,,,,,,,,,,,,,,,,,,,,,,,,,,,,,,,,,,,21000,001,2025-04-02_18h16.11.861,RES501,2024.2.4,60.81911177555006,2025-04-02 18h16.26.165326 +0530,
0,0,0,2,12.239018099848181,None,,,,,,,,,,0,0,0,0,,,,,,,,,,,,,24.19448440009728,,,,,,,,,,,24.12471039989032,24.19448440009728,24.30601690011099,36.55388029990718,HotstarControl.jpg,Plan 2,2,12.239018099848181,None,36.554009299958125,36.56879730010405,37.05448539997451,,,,,,,,,,,,,,,,,,,,,,,,,,,,,,,,,,,,21000,001,2025-04-02_18h16.11.861,RES501,2024.2.4,60.81911177555006,2025-04-02 18h16.26.165326 +0530,
1,0,1,2,3.829850799869746,None,,,,,,,,,,1,0,1,0,,,,,,,,,,,,,37.086108499905095,,,,,,,,,,,37.07926440006122,37.086108499905095,37.25372139993124,41.08782160002738,NetflixControl.jpg,Plan 2,2,3.829850799869746,None,41.08796499995515,41.10194439999759,41.58565289992839,41.61749129998498,,,,,,,,,,,,,,,,,,,,,,,,,,,,,,,,,,,21000,001,2025-04-02_18h16.11.861,RES501,2024.2.4,60.81911177555006,2025-04-02 18h16.26.165326 +0530,
2,0,2,3,5.415811100043356,None,,,,,,,,,,2,0,2,0,,,,,,,,,,,,,41.61749129998498,,,,,,,,,,,41.602849799906835,41.61749129998498,41.80242340010591,47.234987600008026,SonyLivControl.jpg,Plan 3,3,5.415811100043356,None,47.23510399996303,47.2507180001121,47.751317699905485,,,,,,,,,,,,,,,,,,,,,,,,,,,,,,,,,,,,21000,001,2025-04-02_18h16.11.861,RES501,2024.2.4,60.81911177555006,2025-04-02 18h16.26.165326 +0530,
3,0,3,1,3.1065074999351054,None,,,,,,,,,,3,0,3,0,,,,,,,,,,,,,47.783800800098106,,,,,,,,,,,47.772216599900275,47.783800800098106,47.93478269991465,51.05136339995079,Zee5Control.jpg,Plan 1,1,3.1065074999351054,None,51.05149280000478,51.06617149990052,51.55075650010258,51.5822425999213,,,,,,,,,,,,,,,,,,,,,,,,,,,,,,,,,,,21000,001,2025-04-02_18h16.11.861,RES501,2024.2.4,60.81911177555006,2025-04-02 18h16.26.165326 +0530,
4,0,4,3,13.39069030014798,None,,,,,,,,,,4,0,4,0,,,,,,,,,,,,,51.5822425999213,,,,,,,,,,,51.57634759997018,51.5822425999213,51.76682380004786,65.16453399998136,CrunchyrollControl.jpg,Plan 3,3,13.39069030014798,None,65.16466020001099,65.17953870003112,65.66475849994458,65.69696650002152,,,,,,,,,,,,,,,,,,,,,,,,,,,,,,,,,,,21000,001,2025-04-02_18h16.11.861,RES501,2024.2.4,60.81911177555006,2025-04-02 18h16.26.165326 +0530,
5,0,5,2,7.810332200024277,None,,,,,,,,,,5,0,5,0,,,,,,,,,,,,,65.69696650002152,,,,,,,,,,,65.68229139992036,65.69696650002152,65.8641057999339,73.68096309993416,AppleOneControl.jpg,Plan 2,2,7.810332200024277,None,73.6810902999714,73.69457720010541,74.17906969995238,74.24264120007865,,,,,,,,,,,,,,,,,,,,,,,,,,,,,,,,,,,21000,001,2025-04-02_18h16.11.861,RES501,2024.2.4,60.81911177555006,2025-04-02 18h16.26.165326 +0530,
,,,,,,,,,,,,,,,,,,,,,,,,,,,,,,,,,,,,,,,,,,,,,,,,,,,74.23294540005736,74.24264120007865,74.69320870004594,,,,,,,,,,,,,,,,,,,,,,,,,,,,,,,,,,,,21000,001,2025-04-02_18h16.11.861,RES501,2024.2.4,60.81911177555006,2025-04-02 18h16.26.165326 +0530,
0,0,0,,,,1,6.086326800053939,None,,,,,,,,,,,0,0,0,0,,,,,,,,,74.72785519994795,,,,,,,,,,,,,,,,,,,,80.99434360000305,81.00883390009403,81.49375550006516,81.52560780011117,74.707280700095,74.72785519994795,74.89561309991404,80.99423309997655,Hotstar20.jpg,Plan 1,1,6.086326800053939,None,,,,,,,,,,,,,,,,,,,,,,,,,,21000,001,2025-04-02_18h16.11.861,RES501,2024.2.4,60.81911177555006,2025-04-02 18h16.26.165326 +0530,
1,0,1,,,,2,11.955072599928826,None,,,,,,,,,,,1,0,1,0,,,,,,,,,81.52560780011117,,,,,,,,,,,,,,,,,,,,93.67783339996822,93.69223980000243,94.19083700003102,,81.50766579993069,81.52560780011117,81.70947450003587,93.67767479992472,Netflix20.jpg,Plan 2,2,11.955072599928826,None,,,,,,,,,,,,,,,,,,,,,,,,,,21000,001,2025-04-02_18h16.11.861,RES501,2024.2.4,60.81911177555006,2025-04-02 18h16.26.165326 +0530,
2,0,2,,,,1,3.503509699832648,None,,,,,,,,,,,2,0,2,0,,,,,,,,,94.22268430003896,,,,,,,,,,,,,,,,,,,,97.9094885000959,97.92252820008434,98.40656829997897,98.43924480001442,94.21503449999727,94.22268430003896,94.39079069998115,97.90937160002068,Zee520.jpg,Plan 1,1,3.503509699832648,None,,,,,,,,,,,,,,,,,,,,,,,,,,21000,001,2025-04-02_18h16.11.861,RES501,2024.2.4,60.81911177555006,2025-04-02 18h16.26.165326 +0530,
3,0,3,,,,2,2.6248450002167374,None,,,,,,,,,,,3,0,3,0,,,,,,,,,98.43924480001442,,,,,,,,,,,,,,,,,,,,101.25586750009097,101.27112630009651,101.75706529989839,,98.42561560007744,98.43924480001442,98.62404599995352,101.25575069990009,SonyLiv20.jpg,Plan 2,2,2.6248450002167374,None,,,,,,,,,,,,,,,,,,,,,,,,,,21000,001,2025-04-02_18h16.11.861,RES501,2024.2.4,60.81911177555006,2025-04-02 18h16.26.165326 +0530,
4,0,4,,,,2,4.37486319988966,None,,,,,,,,,,,4,0,4,0,,,,,,,,,101.78882739995606,,,,,,,,,,,,,,,,,,,,106.33987400005572,106.35306959995069,106.8387060998939,106.87100040004589,101.78009249991737,101.78882739995606,101.95638610003516,106.33971540001221,AppleOne20.jpg,Plan 2,2,4.37486319988966,None,,,,,,,,,,,,,,,,,,,,,,,,,,21000,001,2025-04-02_18h16.11.861,RES501,2024.2.4,60.81911177555006,2025-04-02 18h16.26.165326 +0530,
5,0,5,,,,3,4.367281199898571,None,,,,,,,,,,,5,0,5,0,,,,,,,,,106.87100040004589,,,,,,,,,,,,,,,,,,,,111.42307169991545,111.43780720001087,111.92264380003326,111.96923750010319,106.86091660009697,106.87100040004589,107.04063789988868,111.4228781000711,Crunchyroll20.jpg,Plan 3,3,4.367281199898571,None,,,,,,,,,,,,,,,,,,,,,,,,,,21000,001,2025-04-02_18h16.11.861,RES501,2024.2.4,60.81911177555006,2025-04-02 18h16.26.165326 +0530,
,,,,,,,,,,,,,,,,,,,,,,,,,,,,,,,,,,,,,,,,,,,,,,,,,,,111.9588536999654,111.96923750010319,112.43652010010555,,,,,,,,,,,,,,,,,,,,,,,,,,,,,,,,,,,,21000,001,2025-04-02_18h16.11.861,RES501,2024.2.4,60.81911177555006,2025-04-02 18h16.26.165326 +0530,
0,0,0,,,,,,,2,5.056766000110656,None,,,,,,,,,,,,0,0,0,0,,,,,112.46889410004951,,,,,,,,,,,,,,,,,,,,117.70330079994164,117.7178013001103,118.20269030006602,118.23532360000536,,,,,,,,,,112.45646709995344,112.46889410004951,112.63642159989104,117.70313700009137,AppleOne30.jpg,Plan 2,2,5.056766000110656,None,,,,,,,,,,,,,,,,,21000,001,2025-04-02_18h16.11.861,RES501,2024.2.4,60.81911177555006,2025-04-02 18h16.26.165326 +0530,
1,0,1,,,,,,,2,7.09293120005168,None,,,,,,,,,,,,1,0,1,0,,,,,118.23532360000536,,,,,,,,,,,,,,,,,,,,125.5202878001146,125.53525319998153,126.0336974998936,,,,,,,,,,,118.22545120003633,118.23532360000536,118.42141530010849,125.52016420010477,Netflix30.jpg,Plan 2,2,7.09293120005168,None,,,,,,,,,,,,,,,,,21000,001,2025-04-02_18h16.11.861,RES501,2024.2.4,60.81911177555006,2025-04-02 18h16.26.165326 +0530,
2,0,2,,,,,,,3,8.536067799897864,None,,,,,,,,,,,,2,0,2,0,,,,,126.06553740007803,,,,,,,,,,,,,,,,,,,,134.78436940000392,134.79865960008465,135.28321640007198,135.3161549998913,,,,,,,,,,126.0588962000329,126.06553740007803,126.23570260009728,134.78420330001973,SonyLiv30.jpg,Plan 3,3,8.536067799897864,None,,,,,,,,,,,,,,,,,21000,001,2025-04-02_18h16.11.861,RES501,2024.2.4,60.81911177555006,2025-04-02 18h16.26.165326 +0530,
3,0,3,,,,,,,2,3.2571375998668373,None,,,,,,,,,,,,3,0,3,0,,,,,135.3161549998913,,,,,,,,,,,,,,,,,,,,138.76928479992785,138.78184500010684,139.27986359992065,,,,,,,,,,,135.2985755999107,135.3161549998913,135.49922659993172,138.76914429990575,Crunchyroll30.jpg,Plan 2,2,3.2571375998668373,None,,,,,,,,,,,,,,,,,21000,001,2025-04-02_18h16.11.861,RES501,2024.2.4,60.81911177555006,2025-04-02 18h16.26.165326 +0530,
4,0,4,,,,,,,2,9.677003000164405,None,,,,,,,,,,,,4,0,4,0,,,,,139.31513649993576,,,,,,,,,,,,,,,,,,,,149.16650970000774,149.17915380001068,149.66281419992447,149.69459350011311,,,,,,,,,,139.306809599977,139.31513649993576,139.4832450998947,149.1663156999275,Hotstar30.jpg,Plan 2,2,9.677003000164405,None,,,,,,,,,,,,,,,,,21000,001,2025-04-02_18h16.11.861,RES501,2024.2.4,60.81911177555006,2025-04-02 18h16.26.165326 +0530,
5,0,5,,,,,,,1,2.344627100042999,None,,,,,,,,,,,,5,0,5,0,,,,,149.69459350011311,,,,,,,,,,,,,,,,,,,,152.2302600000985,152.24546719994396,152.7288714000024,152.77674730005674,,,,,,,,,,149.6796230999753,149.69459350011311,149.87802570010535,152.23013700009324,Zee530.jpg,Plan 1,1,2.344627100042999,None,,,,,,,,,,,,,,,,,21000,001,2025-04-02_18h16.11.861,RES501,2024.2.4,60.81911177555006,2025-04-02 18h16.26.165326 +0530,
,,,,,,,,,,,,,,,,,,,,,,,,,,,,,,,,,,,,,,,,,,,,,,,,,,,152.7599297000561,152.77674730005674,153.24536460009404,,,,,,,,,,,,,,,,,,,,,,,,,,,,,,,,,,,,21000,001,2025-04-02_18h16.11.861,RES501,2024.2.4,60.81911177555006,2025-04-02 18h16.26.165326 +0530,
0,0,0,,,,,,,,,,2,1.633869000012055,None,,,,,,,,,,,,,0,0,0,0,153.27714030002244,,,,,,,,,,,,,,,,,,,,155.0956135999877,155.10965849994682,155.59592729993165,,,,,,,,,,,,,,,,,,,,153.2630032999441,153.27714030002244,153.4443481999915,155.0954994999338,AppleOneBundling.jpg,Plan 2,2,1.633869000012055,None,,,,,,,,21000,001,2025-04-02_18h16.11.861,RES501,2024.2.4,60.81911177555006,2025-04-02 18h16.26.165326 +0530,
1,0,1,,,,,,,,,,1,2.322824499802664,None,,,,,,,,,,,,,1,0,1,0,155.62813360011205,,,,,,,,,,,,,,,,,,,,158.14475079998374,158.1592065000441,158.64591660001315,,,,,,,,,,,,,,,,,,,,155.6142824999988,155.62813360011205,155.81178919994272,158.1445893999189,Zee5Bundling.jpg,Plan 1,1,2.322824499802664,None,,,,,,,,21000,001,2025-04-02_18h16.11.861,RES501,2024.2.4,60.81911177555006,2025-04-02 18h16.26.165326 +0530,
2,0,2,,,,,,,,,,2,3.2437098999507725,None,,,,,,,,,,,,,2,0,2,0,158.6767106000334,,,,,,,,,,,,,,,,,,,,162.09537100000307,162.10912799998187,162.59234110009857,162.62542370008305,,,,,,,,,,,,,,,,,,,158.66433950001374,158.6767106000334,158.8449699000921,162.0952477999963,CrunchyrollBundling.jpg,Plan 2,2,3.2437098999507725,None,,,,,,,,21000,001,2025-04-02_18h16.11.861,RES501,2024.2.4,60.81911177555006,2025-04-02 18h16.26.165326 +0530,
3,0,3,,,,,,,,,,4,3.8415677999146283,None,,,,,,,,,,,,,3,0,3,0,162.62542370008305,,,,,,,,,,,,,,,,,,,,166.66040350007825,166.6751492000185,167.15975579991937,167.19201539992355,,,,,,,,,,,,,,,,,,,162.61305449996144,162.62542370008305,162.8100292000454,166.66017860011198,NetflixBundling.jpg,Plan 4,4,3.8415677999146283,None,,,,,,,,21000,001,2025-04-02_18h16.11.861,RES501,2024.2.4,60.81911177555006,2025-04-02 18h16.26.165326 +0530,
4,0,4,,,,,,,,,,2,2.562481499975547,None,,,,,,,,,,,,,4,0,4,0,167.19201539992355,,,,,,,,,,,,,,,,,,,,169.92608019988984,169.94024759996682,170.42636450007558,,,,,,,,,,,,,,,,,,,,167.17620159988292,167.19201539992355,167.35867680003867,169.9259057000745,SonyLivBundling.jpg,Plan 2,2,2.562481499975547,None,,,,,,,,21000,001,2025-04-02_18h16.11.861,RES501,2024.2.4,60.81911177555006,2025-04-02 18h16.26.165326 +0530,
5,0,5,,,,,,,,,,2,2.2494030999951065,None,,,,,,,,,,,,,5,0,5,0,170.45807019993663,,,,,,,,,,,,,,,,,,,,172.87832350004464,172.89118680008687,173.39058550004847,,,,,,,,,,,,,,,,,,,,170.44307020003907,170.45807019993663,170.62708249990828,172.87817439995706,HotstarBundling.jpg,Plan 2,2,2.2494030999951065,None,,,,,,,,21000,001,2025-04-02_18h16.11.861,RES501,2024.2.4,60.81911177555006,2025-04-02 18h16.26.165326 +0530,
,,,,,,,,,,,,,,,,,,,,,,,,,,,,,,,,,,,,,,,,,,,,,,,,,,,173.4197748999577,173.43809000006877,173.89057620009407,,,,,,,,,,,,,,,,,,,,,,,,,,,,,,,,,,,,21000,001,2025-04-02_18h16.11.861,RES501,2024.2.4,60.81911177555006,2025-04-02 18h16.26.165326 +0530,
,,,,,,,,,,,,,,,,,,,,,,,,,,,,,,,,,,,,,,,,,,,,,,,,,,,,,,,,,,,,,,,,,,,,,,,,,,,,,,,,,,173.89063109993003,173.90724519989453,174.88910249993205,178.62460170011036,space,3.7325194000732154,None,21000,001,2025-04-02_18h16.11.861,RES501,2024.2.4,60.81911177555006,2025-04-02 18h16.26.165326 +0530,
