thisN,thisTrialN,thisRepN,key_resp_control.keys,key_resp_control.rt,key_resp_control.duration,key_resp_20.keys,key_resp_20.rt,key_resp_20.duration,key_resp_30.keys,key_resp_30.rt,key_resp_30.duration,key_resp_bundling.keys,key_resp_bundling.rt,key_resp_bundling.duration,trialsControl.thisRepN,trialsControl.thisTrialN,trialsControl.thisN,trialsControl.thisIndex,trials20.thisRepN,trials20.thisTrialN,trials20.thisN,trials20.thisIndex,trials30.thisRepN,trials30.thisTrialN,trials30.thisN,trials30.thisIndex,trialsBundling.thisRepN,trialsBundling.thisTrialN,trialsBundling.thisN,trialsBundling.thisIndex,thisRow.t,notes,WelcomeScreen.started,textWelcScreen.started,textWelcMessage.started,textWelcScreen.stopped,key_respStart.started,WelcomeScreen.stopped,key_respStart.keys,key_respStart.rt,key_respStart.duration,trialControl.started,image_control.started,key_resp_control.started,trialControl.stopped,Image,Selected_Plan,trialsControl.key_resp_control.keys,trialsControl.key_resp_control.rt,trialsControl.key_resp_control.duration,blank500.started,textblank500.started,textblank500.stopped,blank500.stopped,trial20.started,image_20.started,key_resp_20.started,trial20.stopped,Image_20,Selected_Plan_20,trials20.key_resp_20.keys,trials20.key_resp_20.rt,trials20.key_resp_20.duration,trial30.started,image_30.started,key_resp_30.started,trial30.stopped,Image_30,Selected_Plan_30,trials30.key_resp_30.keys,trials30.key_resp_30.rt,trials30.key_resp_30.duration,trialBundling.started,image_bundling.started,key_resp_bundling.started,trialBundling.stopped,Image_Bundling,Selected_Plan_Bundling,trialsBundling.key_resp_bundling.keys,trialsBundling.key_resp_bundling.rt,trialsBundling.key_resp_bundling.duration,EndScreen.started,textEndScreen.started,key_respEnd.started,EndScreen.stopped,key_respEnd.keys,key_respEnd.rt,key_respEnd.duration,participant,session,date,expName,psychopyVersion,frameRate,expStart,
,,,,,,,,,,,,,,,,,,,,,,,,,,,,,,,,,0.052781290956772864,0.15689820796251297,2.0955852909828536,2.1547142079798505,2.994564332999289,12.988057999988087,space,9.90134958398994,None,,,,,,,,,,,,,,,,,,,,,,,,,,,,,,,,,,,,,,,,,,,,,,,,43159,001,2025-04-01_12h49.16.514,RES501,2024.2.4,None,2025-04-01 12h49.36.466946 +0530,
0,0,0,2,15.394267458003014,None,,,,,,,,,,0,0,0,0,,,,,,,,,,,,,13.157584624947049,,,,,,,,,,,13.044497374969069,13.157584624947049,13.179719207982998,28.595956332981586,SonyLivControl.jpg,Plan 2,2,15.394267458003014,None,28.596515999990515,28.60709704097826,29.14269066596171,29.094227124995086,,,,,,,,,,,,,,,,,,,,,,,,,,,,,,,,,,,43159,001,2025-04-01_12h49.16.514,RES501,2024.2.4,None,2025-04-01 12h49.36.466946 +0530,
1,0,1,2,3.6080291669932194,None,,,,,,,,,,1,0,1,0,,,,,,,,,,,,,29.14269066596171,,,,,,,,,,,29.133927957969718,29.14269066596171,29.29390433296794,32.90984216600191,NetflixControl.jpg,Plan 2,2,3.6080291669932194,None,32.909973290981725,32.93884858296951,,33.4216636249912,,,,,,,,,,,,,,,,,,,,,,,,,,,,,,,,,,,43159,001,2025-04-01_12h49.16.514,RES501,2024.2.4,None,2025-04-01 12h49.36.466946 +0530,
2,0,2,2,3.8386840829625726,None,,,,,,,,,,2,0,2,0,,,,,,,,,,,,,33.4633492079447,,,,,,,,,,,33.456868874956854,33.4633492079447,33.607843332982156,37.45736608299194,AppleOneControl.jpg,Plan 2,2,3.8386840829625726,None,37.45751395798288,37.46641708299285,37.989036957966164,37.95561787497718,,,,,,,,,,,,,,,,,,,,,,,,,,,,,,,,,,,43159,001,2025-04-01_12h49.16.514,RES501,2024.2.4,None,2025-04-01 12h49.36.466946 +0530,
3,0,3,3,12.307350459042937,None,,,,,,,,,,3,0,3,0,,,,,,,,,,,,,37.989036957966164,,,,,,,,,,,37.981121290999,37.989036957966164,38.15497116598999,50.47687162499642,CrunchyrollControl.jpg,Plan 3,3,12.307350459042937,None,50.47758399997838,50.49248333298601,,50.97832658299012,,,,,,,,,,,,,,,,,,,,,,,,,,,,,,,,,,,43159,001,2025-04-01_12h49.16.514,RES501,2024.2.4,None,2025-04-01 12h49.36.466946 +0530,
4,0,4,2,3.4654691250179894,None,,,,,,,,,,4,0,4,0,,,,,,,,,,,,,51.03712737496244,,,,,,,,,,,51.02976070798468,51.03712737496244,51.17233937495621,54.642825999995694,HotstarControl.jpg,Plan 2,2,3.4654691250179894,None,54.64292737498181,54.65448079095222,55.161170374951325,55.14263879094506,,,,,,,,,,,,,,,,,,,,,,,,,,,,,,,,,,,43159,001,2025-04-01_12h49.16.514,RES501,2024.2.4,None,2025-04-01 12h49.36.466946 +0530,
5,0,5,1,5.2970602089772,None,,,,,,,,,,5,0,5,0,,,,,,,,,,,,,55.161170374951325,,,,,,,,,,,55.153873790986836,55.161170374951325,55.340050040977076,60.64520524995169,Zee5Control.jpg,Plan 1,1,5.2970602089772,None,60.64528720796807,60.65548049996141,61.14707124995766,61.14246354094939,,,,,,,,,,,,,,,,,,,,,,,,,,,,,,,,,,,43159,001,2025-04-01_12h49.16.514,RES501,2024.2.4,None,2025-04-01 12h49.36.466946 +0530,
,,,,,,,,,,,,,,,,,,,,,,,,,,,,,,,,,,,,,,,,,,,,,,,,,,,61.1426417909679,61.14707124995766,61.704462290974334,61.64464379096171,,,,,,,,,,,,,,,,,,,,,,,,,,,,,,,,,,,43159,001,2025-04-01_12h49.16.514,RES501,2024.2.4,None,2025-04-01 12h49.36.466946 +0530,
0,0,0,,,,3,2.671466458006762,None,,,,,,,,,,,0,0,0,0,,,,,,,,,61.704462290974334,,,,,,,,,,,,,,,,,,,,64.51775329100201,64.5392743749544,,65.02396120794583,61.69730141595937,61.704462290974334,61.83845762495184,64.51736791594885,SonyLiv20.jpg,Plan 3,3,2.671466458006762,None,,,,,,,,,,,,,,,,,,,,,,,,,,43159,001,2025-04-01_12h49.16.514,RES501,2024.2.4,None,2025-04-01 12h49.36.466946 +0530,
1,0,1,,,,3,1.7509589580004103,None,,,,,,,,,,,1,0,1,0,,,,,,,,,65.07669074996375,,,,,,,,,,,,,,,,,,,,66.98358245799318,66.99541841598693,67.52134616597323,67.47836391598685,65.06930908298818,65.07669074996375,65.21432420797646,66.9829537079786,Crunchyroll20.jpg,Plan 3,3,1.7509589580004103,None,,,,,,,,,,,,,,,,,,,,,,,,,,43159,001,2025-04-01_12h49.16.514,RES501,2024.2.4,None,2025-04-01 12h49.36.466946 +0530,
2,0,2,,,,3,3.9660895840497687,None,,,,,,,,,,,2,0,2,0,,,,,,,,,67.52134616597323,,,,,,,,,,,,,,,,,,,,71.65799133299151,71.66683841595659,72.18333574995631,72.156320665963,67.51446262496756,67.52134616597323,67.67829924996477,71.65780945797451,Netflix20.jpg,Plan 3,3,3.9660895840497687,None,,,,,,,,,,,,,,,,,,,,,,,,,,43159,001,2025-04-01_12h49.16.514,RES501,2024.2.4,None,2025-04-01 12h49.36.466946 +0530,
3,0,3,,,,1,5.421013167011552,None,,,,,,,,,,,3,0,3,0,,,,,,,,,72.18333574995631,,,,,,,,,,,,,,,,,,,,77.791968540987,77.80333120794967,,78.29331808298593,72.17667916597566,72.18333574995631,72.35625104099745,77.79124454094563,Zee520.jpg,Plan 1,1,5.421013167011552,None,,,,,,,,,,,,,,,,,,,,,,,,,,43159,001,2025-04-01_12h49.16.514,RES501,2024.2.4,None,2025-04-01 12h49.36.466946 +0530,
4,0,4,,,,2,2.844412459002342,None,,,,,,,,,,,4,0,4,0,,,,,,,,,78.33067954098806,,,,,,,,,,,,,,,,,,,,81.34101870795712,81.34597166598542,81.88426641596016,81.84016287495615,78.32378987496486,78.33067954098806,78.49224266596138,81.34087587497197,AppleOne20.jpg,Plan 2,2,2.844412459002342,None,,,,,,,,,,,,,,,,,,,,,,,,,,43159,001,2025-04-01_12h49.16.514,RES501,2024.2.4,None,2025-04-01 12h49.36.466946 +0530,
5,0,5,,,,3,1.581721958995331,None,,,,,,,,,,,5,0,5,0,,,,,,,,,81.88426641596016,,,,,,,,,,,,,,,,,,,,83.62696016597329,83.63529899995774,84.13938433298608,84.1271533749532,81.87766991596436,81.88426641596016,82.03901141596725,83.62682533299085,Hotstar20.jpg,Plan 3,3,1.581721958995331,None,,,,,,,,,,,,,,,,,,,,,,,,,,43159,001,2025-04-01_12h49.16.514,RES501,2024.2.4,None,2025-04-01 12h49.36.466946 +0530,
,,,,,,,,,,,,,,,,,,,,,,,,,,,,,,,,,,,,,,,,,,,,,,,,,,,84.1272866249783,84.13938433298608,84.66791550000198,84.6273538749665,,,,,,,,,,,,,,,,,,,,,,,,,,,,,,,,,,,43159,001,2025-04-01_12h49.16.514,RES501,2024.2.4,None,2025-04-01 12h49.36.466946 +0530,
0,0,0,,,,,,,3,1.2829953749896958,None,,,,,,,,,,,,0,0,0,0,,,,,84.66791550000198,,,,,,,,,,,,,,,,,,,,86.11414724995848,86.12617041595513,86.6346802909975,86.61234187497757,,,,,,,,,,84.66092129098251,84.66791550000198,84.82568208297016,86.1139151660027,Crunchyroll30.jpg,Plan 3,3,1.2829953749896958,None,,,,,,,,,,,,,,,,,43159,001,2025-04-01_12h49.16.514,RES501,2024.2.4,None,2025-04-01 12h49.36.466946 +0530,
1,0,1,,,,,,,1,2.380721999972593,None,,,,,,,,,,,,1,0,1,0,,,,,86.6346802909975,,,,,,,,,,,,,,,,,,,,89.19555199996103,89.20585916598793,89.74293462495552,89.69428137497744,,,,,,,,,,86.62807579099899,86.6346802909975,86.80580820795149,89.19540999998571,Zee530.jpg,Plan 1,1,2.380721999972593,None,,,,,,,,,,,,,,,,,43159,001,2025-04-01_12h49.16.514,RES501,2024.2.4,None,2025-04-01 12h49.36.466946 +0530,
2,0,2,,,,,,,3,3.692162916995585,None,,,,,,,,,,,,2,0,2,0,,,,,89.74293462495552,,,,,,,,,,,,,,,,,,,,93.59494062495651,93.60407237499021,94.12748104095226,94.09097083297092,,,,,,,,,,89.73621883295709,89.74293462495552,89.89421174995368,93.59477845794754,SonyLiv30.jpg,Plan 3,3,3.692162916995585,None,,,,,,,,,,,,,,,,,43159,001,2025-04-01_12h49.16.514,RES501,2024.2.4,None,2025-04-01 12h49.36.466946 +0530,
3,0,3,,,,,,,2,1.3219955419772305,None,,,,,,,,,,,,3,0,3,0,,,,,94.12748104095226,,,,,,,,,,,,,,,,,,,,95.62404379097279,95.63051691598957,96.1559912499506,96.12320970796281,,,,,,,,,,94.12103224999737,94.12748104095226,94.29246758297086,95.62392279098276,AppleOne30.jpg,Plan 2,2,1.3219955419772305,None,,,,,,,,,,,,,,,,,43159,001,2025-04-01_12h49.16.514,RES501,2024.2.4,None,2025-04-01 12h49.36.466946 +0530,
4,0,4,,,,,,,3,1.2574252089834772,None,,,,,,,,,,,,4,0,4,0,,,,,96.1559912499506,,,,,,,,,,,,,,,,,,,,97.58294849999947,97.59465154097416,98.11960724997334,98.07787808298599,,,,,,,,,,96.14931237499695,96.1559912499506,96.32262637495296,97.58280183299212,Hotstar30.jpg,Plan 3,3,1.2574252089834772,None,,,,,,,,,,,,,,,,,43159,001,2025-04-01_12h49.16.514,RES501,2024.2.4,None,2025-04-01 12h49.36.466946 +0530,
5,0,5,,,,,,,3,1.1068133339867927,None,,,,,,,,,,,,5,0,5,0,,,,,98.11960724997334,,,,,,,,,,,,,,,,,,,,99.3989425409818,99.4103275410016,99.91071516595548,99.89599462499609,,,,,,,,,,98.11256508296356,98.11960724997334,98.2897317079478,99.39879004098475,Netflix30.jpg,Plan 3,3,1.1068133339867927,None,,,,,,,,,,,,,,,,,43159,001,2025-04-01_12h49.16.514,RES501,2024.2.4,None,2025-04-01 12h49.36.466946 +0530,
,,,,,,,,,,,,,,,,,,,,,,,,,,,,,,,,,,,,,,,,,,,,,,,,,,,99.89613008295419,99.91071516595548,100.42254604096524,100.396123332961,,,,,,,,,,,,,,,,,,,,,,,,,,,,,,,,,,,43159,001,2025-04-01_12h49.16.514,RES501,2024.2.4,None,2025-04-01 12h49.36.466946 +0530,
0,0,0,,,,,,,,,,2,3.433257875032723,None,,,,,,,,,,,,,0,0,0,0,100.42254604096524,,,,,,,,,,,,,,,,,,,,104.04139499994926,104.05018037499394,104.57153804099653,104.54056858294643,,,,,,,,,,,,,,,,,,,100.4153677909635,100.42254604096524,100.59726533299545,104.04026637499919,AppleOneBundling.jpg,Plan 2,2,3.433257875032723,None,,,,,,,,43159,001,2025-04-01_12h49.16.514,RES501,2024.2.4,None,2025-04-01 12h49.36.466946 +0530,
1,0,1,,,,,,,,,,3,2.745264832978137,None,,,,,,,,,,,,,1,0,1,0,104.57153804099653,,,,,,,,,,,,,,,,,,,,107.4963058749563,107.50644145795377,108.02771237498382,107.99435554095544,,,,,,,,,,,,,,,,,,,104.56474549998529,104.57153804099653,104.73960024997359,107.49603004095843,NetflixBundling.jpg,Plan 3,3,2.745264832978137,None,,,,,,,,43159,001,2025-04-01_12h49.16.514,RES501,2024.2.4,None,2025-04-01 12h49.36.466946 +0530,
2,0,2,,,,,,,,,,3,0.7976993329939432,None,,,,,,,,,,,,,2,0,2,0,108.02771237498382,,,,,,,,,,,,,,,,,,,,108.99555970798247,109.00654566596495,109.52993858297123,109.49448645795928,,,,,,,,,,,,,,,,,,,108.01885433297139,108.02771237498382,108.19317529100226,108.99543495796388,HotstarBundling.jpg,Plan 3,3,0.7976993329939432,None,,,,,,,,43159,001,2025-04-01_12h49.16.514,RES501,2024.2.4,None,2025-04-01 12h49.36.466946 +0530,
3,0,3,,,,,,,,,,2,2.122169832990039,None,,,,,,,,,,,,,3,0,3,0,109.52993858297123,,,,,,,,,,,,,,,,,,,,111.81698395794956,111.8271614999976,112.34333733294625,112.31224583298899,,,,,,,,,,,,,,,,,,,109.52250787499361,109.52993858297123,109.6901839999482,111.81685329094762,SonyLivBundling.jpg,Plan 2,2,2.122169832990039,None,,,,,,,,43159,001,2025-04-01_12h49.16.514,RES501,2024.2.4,None,2025-04-01 12h49.36.466946 +0530,
4,0,4,,,,,,,,,,1,1.9526853749994189,None,,,,,,,,,,,,,4,0,4,0,112.34333733294625,,,,,,,,,,,,,,,,,,,,114.47544983297121,114.48482824995881,115.0049537079758,114.97418891597772,,,,,,,,,,,,,,,,,,,112.33615829097107,112.34333733294625,112.51334070798475,114.47529366594972,Zee5Bundling.jpg,Plan 1,1,1.9526853749994189,None,,,,,,,,43159,001,2025-04-01_12h49.16.514,RES501,2024.2.4,None,2025-04-01 12h49.36.466946 +0530,
5,0,5,,,,,,,,,,2,1.5303365829749964,None,,,,,,,,,,,,,5,0,5,0,115.0049537079758,,,,,,,,,,,,,,,,,,,,116.70896191598149,116.71376245794818,117.21348445798503,117.2076409579604,,,,,,,,,,,,,,,,,,,114.9983755829744,115.0049537079758,115.1733099159901,116.70875787496334,CrunchyrollBundling.jpg,Plan 2,2,1.5303365829749964,None,,,,,,,,43159,001,2025-04-01_12h49.16.514,RES501,2024.2.4,None,2025-04-01 12h49.36.466946 +0530,
,,,,,,,,,,,,,,,,,,,,,,,,,,,,,,,,,,,,,,,,,,,,,,,,,,,117.20793654100271,117.21348445798503,117.72818833298516,117.70759174996056,,,,,,,,,,,,,,,,,,,,,,,,,,,,,,,,,,,43159,001,2025-04-01_12h49.16.514,RES501,2024.2.4,None,2025-04-01 12h49.36.466946 +0530,
,,,,,,,,,,,,,,,,,,,,,,,,,,,,,,,,,,,,,,,,,,,,,,,,,,,,,,,,,,,,,,,,,,,,,,,,,,,,,,,,,,117.70766079099849,117.72818833298516,118.70703687495552,120.51514733297518,space,1.8050530420150608,None,43159,001,2025-04-01_12h49.16.514,RES501,2024.2.4,None,2025-04-01 12h49.36.466946 +0530,
