thisN,thisTrialN,thisRepN,key_resp_control.keys,key_resp_control.rt,key_resp_control.duration,key_resp_20.keys,key_resp_20.rt,key_resp_20.duration,key_resp_30.keys,key_resp_30.rt,key_resp_30.duration,key_resp_bundling.keys,key_resp_bundling.rt,key_resp_bundling.duration,trialsControl.thisRepN,trialsControl.thisTrialN,trialsControl.thisN,trialsControl.thisIndex,trials20.thisRepN,trials20.thisTrialN,trials20.thisN,trials20.thisIndex,trials30.thisRepN,trials30.thisTrialN,trials30.thisN,trials30.thisIndex,trialsBundling.thisRepN,trialsBundling.thisTrialN,trialsBundling.thisN,trialsBundling.thisIndex,thisRow.t,notes,WelcomeScreen.started,textWelcScreen.started,textWelcMessage.started,textWelcScreen.stopped,key_respStart.started,WelcomeScreen.stopped,key_respStart.keys,key_respStart.rt,key_respStart.duration,trialControl.started,image_control.started,key_resp_control.started,trialControl.stopped,Image,Selected_Plan,trialsControl.key_resp_control.keys,trialsControl.key_resp_control.rt,trialsControl.key_resp_control.duration,blank500.started,textblank500.started,blank500.stopped,trial20.started,image_20.started,key_resp_20.started,trial20.stopped,Image_20,Selected_Plan_20,trials20.key_resp_20.keys,trials20.key_resp_20.rt,trials20.key_resp_20.duration,textblank500.stopped,trial30.started,image_30.started,key_resp_30.started,trial30.stopped,Image_30,Selected_Plan_30,trials30.key_resp_30.keys,trials30.key_resp_30.rt,trials30.key_resp_30.duration,trialBundling.started,image_bundling.started,key_resp_bundling.started,trialBundling.stopped,Image_Bundling,Selected_Plan_Bundling,trialsBundling.key_resp_bundling.keys,trialsBundling.key_resp_bundling.rt,trialsBundling.key_resp_bundling.duration,EndScreen.started,textEndScreen.started,key_respEnd.started,EndScreen.stopped,key_respEnd.keys,key_respEnd.rt,key_respEnd.duration,participant,session,date,expName,psychopyVersion,frameRate,expStart
,,,,,,,,,,,,,,,,,,,,,,,,,,,,,,,,,0.1220904,0.153912,2.1221847,2.160733,3.0104589,54.9428986,space,51.9018369,None,,,,,,,,,,,,,,,,,,,,,,,,,,,,,,,,,,,,,,,,,,,,,,,,66808,1,2025-03-26_13h09.35.920,RES501,2024.2.4,59.03644262,2025-03-26 13h10.10.416488 +0530
0,0,0,3,80.3769174,None,,,,,,,,,,0,0,0,0,,,,,,,,,,,,,55.2317724,,,,,,,,,,,55.045363,55.2317724,55.2490878,135.6569776,HotstarControl.jpg,Plan 3,3,80.3769174,None,135.6574906,135.6852909,136.172662,,,,,,,,,,,,,,,,,,,,,,,,,,,,,,,,,,,,66808,1,2025-03-26_13h09.35.920,RES501,2024.2.4,59.03644262,2025-03-26 13h10.10.416488 +0530
1,0,1,2,46.0467468,None,,,,,,,,,,1,0,1,0,,,,,,,,,,,,,136.2737932,,,,,,,,,,,136.2565585,136.2737932,136.3574373,182.4115169,SonyLivControl.jpg,Plan 2,2,46.0467468,None,182.4118654,182.4372407,182.924064,,,,,,,,,,,,,,,,,,,,,,,,,,,,,,,,,,,,66808,1,2025-03-26_13h09.35.920,RES501,2024.2.4,59.03644262,2025-03-26 13h10.10.416488 +0530
2,0,2,3,43.8293433,None,,,,,,,,,,2,0,2,0,,,,,,,,,,,,,183.0616326,,,,,,,,,,,183.0371654,183.0616326,183.1262518,226.9775005,CrunchyrollControl.jpg,Plan 3,3,43.8293433,None,226.9778667,227.0028827,227.4905364,,,,,,,,,,,,,,,,,,,,,,,,,,,,,,,,,,,,66808,1,2025-03-26_13h09.35.920,RES501,2024.2.4,59.03644262,2025-03-26 13h10.10.416488 +0530
3,0,3,3,38.8037842,None,,,,,,,,,,3,0,3,0,,,,,,,,,,,,,227.5971658,,,,,,,,,,,227.5713826,227.5971658,227.6920534,266.5044774,NetflixControl.jpg,Plan 3,3,38.8037842,None,266.5048052,266.5293939,267.0169101,,,,,,,,,,,,,,,,,,,,,,,,,,,,,,,,,,,,66808,1,2025-03-26_13h09.35.920,RES501,2024.2.4,59.03644262,2025-03-26 13h10.10.416488 +0530
4,0,4,2,10.2242094,None,,,,,,,,,,4,0,4,0,,,,,,,,,,,,,267.1165159,,,,,,,,,,,267.0891098,267.1165159,267.2186239,277.4498822,AppleOneControl.jpg,Plan 2,2,10.2242094,None,277.4501289,277.4754344,277.9626091,,,,,,,,,,,,,,,,,,,,,,,,,,,,,,,,,,,,66808,1,2025-03-26_13h09.35.920,RES501,2024.2.4,59.03644262,2025-03-26 13h10.10.416488 +0530
5,0,5,1,72.1205976,None,,,,,,,,,,5,0,5,0,,,,,,,,,,,,,278.0322297,,,,,,,,,,,278.0086253,278.0322297,278.1643615,350.2969954,Zee5Control.jpg,Plan 1,1,72.1205976,None,350.2972184,350.3219397,350.8095221,,,,,,,,,,,,,,,,,,,,,,,,,,,,,,,,,,,,66808,1,2025-03-26_13h09.35.920,RES501,2024.2.4,59.03644262,2025-03-26 13h10.10.416488 +0530
,,,,,,,,,,,,,,,,,,,,,,,,,,,,,,,,,,,,,,,,,,,,,,,,,,,351.1113565,351.1236254,351.3092977,,,,,,,,,,,,,,,,,,,,,,,,,,,,,,,,,,,,66808,1,2025-03-26_13h09.35.920,RES501,2024.2.4,59.03644262,2025-03-26 13h10.10.416488 +0530
0,0,0,,,,2,26.8762494,None,,,,,,,,,,,0,0,0,0,,,,,,,,,351.4289643,,,,,,,,,,,,,,,,,,,,378.3943677,378.419314,378.9064056,351.401674,351.4289643,351.5112485,378.3939243,SonyLiv20.jpg,Plan 2,2,26.8762494,None,,,,,,,,,,,,,,,,,,,,,,,,,,,66808,1,2025-03-26_13h09.35.920,RES501,2024.2.4,59.03644262,2025-03-26 13h10.10.416488 +0530
1,0,1,,,,2,36.400904,None,,,,,,,,,,,1,0,1,0,,,,,,,,,379.0066907,,,,,,,,,,,,,,,,,,,,415.5184748,415.5437947,416.0313802,378.9864445,379.0066907,379.1089616,415.5182193,AppleOne20.jpg,Plan 2,2,36.400904,None,,,,,,,,,,,,,,,,,,,,,,,,,,,66808,1,2025-03-26_13h09.35.920,RES501,2024.2.4,59.03644262,2025-03-26 13h10.10.416488 +0530
2,0,2,,,,3,31.6078948,None,,,,,,,,,,,2,0,2,0,,,,,,,,,416.1352547,,,,,,,,,,,,,,,,,,,,447.8680606,447.8825836,448.3687436,416.1130279,416.1352547,416.233157,447.8677067,Netflix20.jpg,Plan 3,3,31.6078948,None,448.4720131,,,,,,,,,,,,,,,,,,,,,,,,,,66808,1,2025-03-26_13h09.35.920,RES501,2024.2.4,59.03644262,2025-03-26 13h10.10.416488 +0530
3,0,3,,,,3,8.6533606,None,,,,,,,,,,,3,0,3,0,,,,,,,,,448.4720131,,,,,,,,,,,,,,,,,,,,457.2491872,457.2731298,457.7610104,448.4387341,448.4720131,448.5877733,457.2480434,Crunchyroll20.jpg,Plan 3,3,8.6533606,None,,,,,,,,,,,,,,,,,,,,,,,,,,,66808,1,2025-03-26_13h09.35.920,RES501,2024.2.4,59.03644262,2025-03-26 13h10.10.416488 +0530
4,0,4,,,,1,35.8745548,None,,,,,,,,,,,4,0,4,0,,,,,,,,,457.8314796,,,,,,,,,,,,,,,,,,,,493.8634694,493.8891555,494.3770258,457.8138682,457.8314796,457.9627684,493.8629511,Zee520.jpg,Plan 1,1,35.8745548,None,,,,,,,,,,,,,,,,,,,,,,,,,,,66808,1,2025-03-26_13h09.35.920,RES501,2024.2.4,59.03644262,2025-03-26 13h10.10.416488 +0530
5,0,5,,,,3,20.0460488,None,,,,,,,,,,,5,0,5,0,,,,,,,,,494.581098,,,,,,,,,,,,,,,,,,,,514.6851747,514.7121389,515.2000254,494.5460637,494.581098,494.6089168,514.6846166,Hotstar20.jpg,Plan 3,3,20.0460488,None,,,,,,,,,,,,,,,,,,,,,,,,,,,66808,1,2025-03-26_13h09.35.920,RES501,2024.2.4,59.03644262,2025-03-26 13h10.10.416488 +0530
,,,,,,,,,,,,,,,,,,,,,,,,,,,,,,,,,,,,,,,,,,,,,,,,,,,515.6046084,515.6297481,515.7022888,,,,,,,,,,,,,,,,,,,,,,,,,,,,,,,,,,,,66808,1,2025-03-26_13h09.35.920,RES501,2024.2.4,59.03644262,2025-03-26 13h10.10.416488 +0530
0,0,0,,,,,,,1,19.0409267,None,,,,,,,,,,,,0,0,0,0,,,,,515.8401056,,,,,,,,,,,,,,,,,,,,534.9620378,534.9847054,535.4734186,,,,,,,,,,,515.8100235,515.8401056,515.9025404,534.9607563,Zee530.jpg,Plan 1,1,19.0409267,None,,,,,,,,,,,,,,,,,66808,1,2025-03-26_13h09.35.920,RES501,2024.2.4,59.03644262,2025-03-26 13h10.10.416488 +0530
1,0,1,,,,,,,3,5.7530897,None,,,,,,,,,,,,1,0,1,0,,,,,535.6929429,,,,,,,,,,,,,,,,,,,,541.4646641,541.4917407,541.9794245,,,,,,,,,,,535.665705,535.6929429,535.6929429,541.4642426,Hotstar30.jpg,Plan 3,3,5.7530897,None,,,,,,,,,,,,,,,,,66808,1,2025-03-26_13h09.35.920,RES501,2024.2.4,59.03644262,2025-03-26 13h10.10.416488 +0530
2,0,2,,,,,,,3,7.2115762,None,,,,,,,,,,,,2,0,2,0,,,,,542.1130725,,,,,,,,,,,,,,,,,,,,549.4057589,549.4338562,549.9214302,,,,,,,,,,,542.0821392,542.1130725,542.1645186,549.4053533,Netflix30.jpg,Plan 3,3,7.2115762,None,,,,,,,,,,,,,,,,,66808,1,2025-03-26_13h09.35.920,RES501,2024.2.4,59.03644262,2025-03-26 13h10.10.416488 +0530
3,0,3,,,,,,,3,11.6466064,None,,,,,,,,,,,,3,0,3,0,,,,,550.0592158,,,,,,,,,,,,,,,,,,,,561.7736261,561.7971816,562.2847206,,,,,,,,,,,550.0321041,550.0592158,550.1228783,561.7732806,Crunchyroll30.jpg,Plan 3,3,11.6466064,None,,,,,,,,,,,,,,,,,66808,1,2025-03-26_13h09.35.920,RES501,2024.2.4,59.03644262,2025-03-26 13h10.10.416488 +0530
4,0,4,,,,,,,2,11.8437043,None,,,,,,,,,,,,4,0,4,0,,,,,562.4508497,,,,,,,,,,,,,,,,,,,,574.3358137,574.3632197,574.8478758,,,,,,,,,,,562.4239936,562.4508497,562.4857931,574.3355577,AppleOne30.jpg,Plan 2,2,11.8437043,None,,,,,,,,,,,,,,,,,66808,1,2025-03-26_13h09.35.920,RES501,2024.2.4,59.03644262,2025-03-26 13h10.10.416488 +0530
5,0,5,,,,,,,3,15.3199819,None,,,,,,,,,,,,5,0,5,0,,,,,574.9520015,,,,,,,,,,,,,,,,,,,,590.3854797,590.3990775,590.8842462,,,,,,,,,,591.0792754,574.9272448,574.9520015,575.0500996,590.3852517,SonyLiv30.jpg,Plan 3,3,15.3199819,None,,,,,,,,,,,,,,,,,66808,1,2025-03-26_13h09.35.920,RES501,2024.2.4,59.03644262,2025-03-26 13h10.10.416488 +0530
,,,,,,,,,,,,,,,,,,,,,,,,,,,,,,,,,,,,,,,,,,,,,,,,,,,591.0568611,591.0792754,591.3990784,,,,,,,,,,,,,,,,,,,,,,,,,,,,,,,,,,,,66808,1,2025-03-26_13h09.35.920,RES501,2024.2.4,59.03644262,2025-03-26 13h10.10.416488 +0530
0,0,0,,,,,,,,,,3,7.398428,None,,,,,,,,,,,,,0,0,0,0,591.4877287,,,,,,,,,,,,,,,,,,,,599.0128222,599.0386175,599.5251316,,,,,,,,,,,,,,,,,,,,591.463962,591.4877287,591.6006875,599.0125825,SonyLivBundling.jpg,Plan 3,3,7.398428,None,,,,,,,,66808,1,2025-03-26_13h09.35.920,RES501,2024.2.4,59.03644262,2025-03-26 13h10.10.416488 +0530
1,0,1,,,,,,,,,,1,9.1941752,None,,,,,,,,,,,,,1,0,1,0,599.6252118,,,,,,,,,,,,,,,,,,,,608.9259086,608.9491012,609.4371129,,,,,,,,,,,,,,,,,,,,599.6022423,599.6252118,599.7272347,608.9253767,Zee5Bundling.jpg,Plan 1,1,9.1941752,None,,,,,,,,66808,1,2025-03-26_13h09.35.920,RES501,2024.2.4,59.03644262,2025-03-26 13h10.10.416488 +0530
2,0,2,,,,,,,,,,3,13.3398162,None,,,,,,,,,,,,,2,0,2,0,609.5224681,,,,,,,,,,,,,,,,,,,,622.9890972,623.015022,623.5016409,,,,,,,,,,,,,,,,,,,,609.5000313,609.5224681,609.6380853,622.9888662,NetflixBundling.jpg,Plan 3,3,13.3398162,None,,,,,,,,66808,1,2025-03-26_13h09.35.920,RES501,2024.2.4,59.03644262,2025-03-26 13h10.10.416488 +0530
3,0,3,,,,,,,,,,1,20.8962131,None,,,,,,,,,,,,,3,0,3,0,623.640331,,,,,,,,,,,,,,,,,,,,644.613329,644.6384305,645.1256165,,,,,,,,,,,,,,,,,,,,623.6063094,623.640331,623.703513,644.6130966,HotstarBundling.jpg,Plan 1,1,20.8962131,None,,,,,,,,66808,1,2025-03-26_13h09.35.920,RES501,2024.2.4,59.03644262,2025-03-26 13h10.10.416488 +0530
4,0,4,,,,,,,,,,2,13.98601,None,,,,,,,,,,,,,4,0,4,0,645.2137563,,,,,,,,,,,,,,,,,,,,659.328972,659.3546782,659.8426422,,,,,,,,,,,,,,,,,,,,645.1935228,645.2137563,645.3270206,659.3286937,AppleOneBundling.jpg,Plan 2,2,13.98601,None,,,,,,,,66808,1,2025-03-26_13h09.35.920,RES501,2024.2.4,59.03644262,2025-03-26 13h10.10.416488 +0530
5,0,5,,,,,,,,,,3,12.9151742,None,,,,,,,,,,,,,5,0,5,0,659.928504,,,,,,,,,,,,,,,,,,,,672.9763521,672.9889724,673.4748727,,,,,,,,,,673.6704539,,,,,,,,,,659.9070333,659.928504,660.0447649,672.9761429,CrunchyrollBundling.jpg,Plan 3,3,12.9151742,None,,,,,,,,66808,1,2025-03-26_13h09.35.920,RES501,2024.2.4,59.03644262,2025-03-26 13h10.10.416488 +0530
,,,,,,,,,,,,,,,,,,,,,,,,,,,,,,,,,,,,,,,,,,,,,,,,,,,673.6442276,673.6704539,673.9905384,,,,,,,,,,,,,,,,,,,,,,,,,,,,,,,,,,,,66808,1,2025-03-26_13h09.35.920,RES501,2024.2.4,59.03644262,2025-03-26 13h10.10.416488 +0530
,,,,,,,,,,,,,,,,,,,,,,,,,,,,,,,,,,,,,,,,,,,,,,,,,,,,,,,,,,,,,,,,,,,,,,,,,,,,,,,,,,673.9911425,674.0541583,674.9919115,712.018854,space,37.019301,None,66808,1,2025-03-26_13h09.35.920,RES501,2024.2.4,59.03644262,2025-03-26 13h10.10.416488 +0530
