thisN,thisTrialN,thisRepN,key_resp_control.keys,key_resp_control.rt,key_resp_control.duration,key_resp_20.keys,key_resp_20.rt,key_resp_20.duration,key_resp_30.keys,key_resp_30.rt,key_resp_30.duration,key_resp_bundling.keys,key_resp_bundling.rt,key_resp_bundling.duration,trialsControl.thisRepN,trialsControl.thisTrialN,trialsControl.thisN,trialsControl.thisIndex,trials20.thisRepN,trials20.thisTrialN,trials20.thisN,trials20.thisIndex,trials30.thisRepN,trials30.thisTrialN,trials30.thisN,trials30.thisIndex,trialsBundling.thisRepN,trialsBundling.thisTrialN,trialsBundling.thisN,trialsBundling.thisIndex,thisRow.t,notes,WelcomeScreen.started,textWelcScreen.started,textWelcScreen.stopped,textWelcMessage.started,key_respStart.started,WelcomeScreen.stopped,key_respStart.keys,key_respStart.rt,key_respStart.duration,trialControl.started,image_control.started,key_resp_control.started,trialControl.stopped,Image,Selected_Plan,trialsControl.key_resp_control.keys,trialsControl.key_resp_control.rt,trialsControl.key_resp_control.duration,blank500.started,textblank500.started,textblank500.stopped,blank500.stopped,trial20.started,image_20.started,key_resp_20.started,trial20.stopped,Image_20,Selected_Plan_20,trials20.key_resp_20.keys,trials20.key_resp_20.rt,trials20.key_resp_20.duration,trial30.started,image_30.started,key_resp_30.started,trial30.stopped,Image_30,Selected_Plan_30,trials30.key_resp_30.keys,trials30.key_resp_30.rt,trials30.key_resp_30.duration,trialBundling.started,image_bundling.started,key_resp_bundling.started,trialBundling.stopped,Image_Bundling,Selected_Plan_Bundling,trialsBundling.key_resp_bundling.keys,trialsBundling.key_resp_bundling.rt,trialsBundling.key_resp_bundling.duration,EndScreen.started,textEndScreen.started,key_respEnd.started,EndScreen.stopped,key_respEnd.keys,key_respEnd.rt,key_respEnd.duration,participant,session,date,expName,psychopyVersion,frameRate,expStart,
,,,,,,,,,,,,,,,,,,,,,,,,,,,,,,,,,0.014828899875283241,0.03266759985126555,2.0485639998223633,2.0992459999397397,3.0158118999097496,7.571455399971455,space,4.540066799847409,None,,,,,,,,,,,,,,,,,,,,,,,,,,,,,,,,,,,,,,,,,,,,,,,,85707,001,2025-04-02_18h23.15.142,RES501,2024.2.4,60.00020407209664,2025-04-02 18h23.33.007196 +0530,
0,0,0,1,2.817266199970618,None,,,,,,,,,,0,0,0,0,,,,,,,,,,,,,7.655176899861544,,,,,,,,,,,7.591830699937418,7.655176899861544,7.781854999950156,10.615494199795648,AppleOneControl.jpg,Plan 1,1,2.817266199970618,None,10.615593499969691,10.63104119990021,11.147605499951169,11.114491599844769,,,,,,,,,,,,,,,,,,,,,,,,,,,,,,,,,,,85707,001,2025-04-02_18h23.15.142,RES501,2024.2.4,60.00020407209664,2025-04-02 18h23.33.007196 +0530,
1,0,1,1,4.386044400045648,None,,,,,,,,,,1,0,1,0,,,,,,,,,,,,,11.147605499951169,,,,,,,,,,,11.129321999847889,11.147605499951169,11.315540299983695,15.71355739980936,HotstarControl.jpg,Plan 1,1,4.386044400045648,None,15.713682599831372,15.729139099828899,16.246444499818608,16.21315239998512,,,,,,,,,,,,,,,,,,,,,,,,,,,,,,,,,,,85707,001,2025-04-02_18h23.15.142,RES501,2024.2.4,60.00020407209664,2025-04-02 18h23.33.007196 +0530,
2,0,2,2,3.4322504000738263,None,,,,,,,,,,2,0,2,0,,,,,,,,,,,,,16.246444499818608,,,,,,,,,,,16.22582699987106,16.246444499818608,16.41358849988319,19.84758329996839,NetflixControl.jpg,Plan 2,2,3.4322504000738263,None,19.847720899851993,19.861684099771082,20.37867459980771,20.34607299999334,,,,,,,,,,,,,,,,,,,,,,,,,,,,,,,,,,,85707,001,2025-04-02_18h23.15.142,RES501,2024.2.4,60.00020407209664,2025-04-02 18h23.33.007196 +0530,
3,0,3,1,3.036407600156963,None,,,,,,,,,,3,0,3,0,,,,,,,,,,,,,20.37867459980771,,,,,,,,,,,20.361253099981695,20.37867459980771,20.563088399823755,23.613077099900693,CrunchyrollControl.jpg,Plan 1,1,3.036407600156963,None,23.613174499943852,23.627597899874672,24.144687799969688,24.111918699927628,,,,,,,,,,,,,,,,,,,,,,,,,,,,,,,,,,,85707,001,2025-04-02_18h23.15.142,RES501,2024.2.4,60.00020407209664,2025-04-02 18h23.33.007196 +0530,
4,0,4,3,2.378014199901372,None,,,,,,,,,,4,0,4,0,,,,,,,,,,,,,24.144687799969688,,,,,,,,,,,24.129975199932232,24.144687799969688,24.32847399986349,26.71363959996961,SonyLivControl.jpg,Plan 3,3,2.378014199901372,None,26.713805299950764,26.72635139990598,27.243261199910194,27.210355599876493,,,,,,,,,,,,,,,,,,,,,,,,,,,,,,,,,,,85707,001,2025-04-02_18h23.15.142,RES501,2024.2.4,60.00020407209664,2025-04-02 18h23.33.007196 +0530,
5,0,5,2,2.3911007998976856,None,,,,,,,,,,5,0,5,0,,,,,,,,,,,,,27.243261199910194,,,,,,,,,,,27.222733199829236,27.243261199910194,27.428293799981475,29.82780099986121,Zee5Control.jpg,Plan 2,2,2.3911007998976856,None,29.827941299881786,29.843219199916348,30.357562999939546,30.327892999863252,,,,,,,,,,,,,,,,,,,,,,,,,,,,,,,,,,,85707,001,2025-04-02_18h23.15.142,RES501,2024.2.4,60.00020407209664,2025-04-02 18h23.33.007196 +0530,
,,,,,,,,,,,,,,,,,,,,,,,,,,,,,,,,,,,,,,,,,,,,,,,,,,,30.353589999955148,30.357562999939546,,30.843594499863684,,,,,,,,,,,,,,,,,,,,,,,,,,,,,,,,,,,85707,001,2025-04-02_18h23.15.142,RES501,2024.2.4,60.00020407209664,2025-04-02 18h23.33.007196 +0530,
0,0,0,,,,3,2.034622099949047,None,,,,,,,,,,,0,0,0,0,,,,,,,,,30.876185999950394,,,,,,,,,,,,,,,,,,,,33.09560609981418,33.10880829999223,33.62527239997871,33.59245699993335,30.860243399860337,30.876185999950394,31.044174699811265,33.09543449990451,Hotstar20.jpg,Plan 3,3,2.034622099949047,None,,,,,,,,,,,,,,,,,,,,,,,,,,85707,001,2025-04-02_18h23.15.142,RES501,2024.2.4,60.00020407209664,2025-04-02 18h23.33.007196 +0530,
1,0,1,,,,3,3.495321499882266,None,,,,,,,,,,,1,0,1,0,,,,,,,,,33.62527239997871,,,,,,,,,,,,,,,,,,,,37.310198299819604,37.324327499838546,37.84032119996846,37.80915499990806,33.61080549983308,33.62527239997871,33.8092402999755,37.310057199792936,SonyLiv20.jpg,Plan 3,3,3.495321499882266,None,,,,,,,,,,,,,,,,,,,,,,,,,,85707,001,2025-04-02_18h23.15.142,RES501,2024.2.4,60.00020407209664,2025-04-02 18h23.33.007196 +0530,
2,0,2,,,,2,2.6799709999468178,None,,,,,,,,,,,2,0,2,0,,,,,,,,,37.84032119996846,,,,,,,,,,,,,,,,,,,,40.71134329983033,40.72441009990871,41.2414508999791,41.20888279983774,37.83189869998023,37.84032119996846,38.02571489987895,40.71113199996762,AppleOne20.jpg,Plan 2,2,2.6799709999468178,None,,,,,,,,,,,,,,,,,,,,,,,,,,85707,001,2025-04-02_18h23.15.142,RES501,2024.2.4,60.00020407209664,2025-04-02 18h23.33.007196 +0530,
3,0,3,,,,2,2.8390786999370903,None,,,,,,,,,,,3,0,3,0,,,,,,,,,41.2414508999791,,,,,,,,,,,,,,,,,,,,44.274047599872574,44.28920409991406,44.807585099944845,44.77384899999015,41.2267375998199,41.2414508999791,41.42609899980016,44.27393249981105,Netflix20.jpg,Plan 2,2,2.8390786999370903,None,,,,,,,,,,,,,,,,,,,,,,,,,,85707,001,2025-04-02_18h23.15.142,RES501,2024.2.4,60.00020407209664,2025-04-02 18h23.33.007196 +0530,
4,0,4,,,,1,2.979651700006798,None,,,,,,,,,,,4,0,4,0,,,,,,,,,44.807585099944845,,,,,,,,,,,,,,,,,,,,47.95866819983348,47.972386199980974,48.47329799993895,48.45656699989922,44.79539689980447,44.807585099944845,44.974286699900404,47.95849169977009,Crunchyroll20.jpg,Plan 1,1,2.979651700006798,None,,,,,,,,,,,,,,,,,,,,,,,,,,85707,001,2025-04-02_18h23.15.142,RES501,2024.2.4,60.00020407209664,2025-04-02 18h23.33.007196 +0530,
5,0,5,,,,1,5.026493099983782,None,,,,,,,,,,,5,0,5,0,,,,,,,,,48.47329799993895,,,,,,,,,,,,,,,,,,,,53.70516569982283,53.72088019992225,,54.20541609986685,48.46640369994566,48.47329799993895,48.673999399878085,53.70508269988932,Zee520.jpg,Plan 1,1,5.026493099983782,None,,,,,,,,,,,,,,,,,,,,,,,,,,85707,001,2025-04-02_18h23.15.142,RES501,2024.2.4,60.00020407209664,2025-04-02 18h23.33.007196 +0530,
,,,,,,,,,,,,,,,,,,,,,,,,,,,,,,,,,,,,,,,,,,,,,,,,,,,54.233716499991715,54.25327659980394,,54.721561499871314,,,,,,,,,,,,,,,,,,,,,,,,,,,,,,,,,,,85707,001,2025-04-02_18h23.15.142,RES501,2024.2.4,60.00020407209664,2025-04-02 18h23.33.007196 +0530,
0,0,0,,,,,,,1,1.9745155000127852,None,,,,,,,,,,,,0,0,0,0,,,,,54.75425699981861,,,,,,,,,,,,,,,,,,,,56.88883089995943,56.90394189977087,57.42152709979564,57.387743999948725,,,,,,,,,,54.73262709984556,54.75425699981861,54.904669699957594,56.88870909996331,Zee530.jpg,Plan 1,1,1.9745155000127852,None,,,,,,,,,,,,,,,,,85707,001,2025-04-02_18h23.15.142,RES501,2024.2.4,60.00020407209664,2025-04-02 18h23.33.007196 +0530,
1,0,1,,,,,,,1,3.429794800002128,None,,,,,,,,,,,,1,0,1,0,,,,,57.42152709979564,,,,,,,,,,,,,,,,,,,,61.02158619998954,61.036136699840426,61.553232999984175,61.52111959992908,,,,,,,,,,57.40401259995997,57.42152709979564,57.589193699881434,61.02147309994325,AppleOne30.jpg,Plan 1,1,3.429794800002128,None,,,,,,,,,,,,,,,,,85707,001,2025-04-02_18h23.15.142,RES501,2024.2.4,60.00020407209664,2025-04-02 18h23.33.007196 +0530,
2,0,2,,,,,,,1,2.493493099929765,None,,,,,,,,,,,,2,0,2,0,,,,,61.553232999984175,,,,,,,,,,,,,,,,,,,,64.22207209980115,64.23641969985329,,64.73686249996535,,,,,,,,,,61.540124899940565,61.553232999984175,61.72047849977389,64.2218065999914,Crunchyroll30.jpg,Plan 1,1,2.493493099929765,None,,,,,,,,,,,,,,,,,85707,001,2025-04-02_18h23.15.142,RES501,2024.2.4,60.00020407209664,2025-04-02 18h23.33.007196 +0530,
3,0,3,,,,,,,2,2.2376228000503033,None,,,,,,,,,,,,3,0,3,0,,,,,64.78751389984973,,,,,,,,,,,,,,,,,,,,67.18675809982233,67.20112869981676,67.71792139997706,67.68673669989221,,,,,,,,,,64.76502279983833,64.78751389984973,64.93702709977515,67.1866295998916,Hotstar30.jpg,Plan 2,2,2.2376228000503033,None,,,,,,,,,,,,,,,,,85707,001,2025-04-02_18h23.15.142,RES501,2024.2.4,60.00020407209664,2025-04-02 18h23.33.007196 +0530,
4,0,4,,,,,,,4,3.3480222998186946,None,,,,,,,,,,,,4,0,4,0,,,,,67.71792139997706,,,,,,,,,,,,,,,,,,,,71.25216229981743,71.26781169977039,71.78379619983025,71.75181759987026,,,,,,,,,,67.7045611999929,67.71792139997706,67.90217009978369,71.25205869995989,Netflix30.jpg,Plan 4,4,3.3480222998186946,None,,,,,,,,,,,,,,,,,85707,001,2025-04-02_18h23.15.142,RES501,2024.2.4,60.00020407209664,2025-04-02 18h23.33.007196 +0530,
5,0,5,,,,,,,3,3.5355282998643816,None,,,,,,,,,,,,5,0,5,0,,,,,71.78379619983025,,,,,,,,,,,,,,,,,,,,75.51854799990542,75.53328499989584,76.06519129988737,76.01847369992174,,,,,,,,,,71.77174519980326,71.78379619983025,71.96705469978042,75.5183635998983,SonyLiv30.jpg,Plan 3,3,3.5355282998643816,None,,,,,,,,,,,,,,,,,85707,001,2025-04-02_18h23.15.142,RES501,2024.2.4,60.00020407209664,2025-04-02 18h23.33.007196 +0530,
,,,,,,,,,,,,,,,,,,,,,,,,,,,,,,,,,,,,,,,,,,,,,,,,,,,76.04571849992499,76.06519129988737,,76.53373029991053,,,,,,,,,,,,,,,,,,,,,,,,,,,,,,,,,,,85707,001,2025-04-02_18h23.15.142,RES501,2024.2.4,60.00020407209664,2025-04-02 18h23.33.007196 +0530,
0,0,0,,,,,,,,,,2,2.4571161000058055,None,,,,,,,,,,,,,0,0,0,0,76.56618689978495,,,,,,,,,,,,,,,,,,,,79.2011891999282,79.21583089977503,79.73170199990273,79.70003519998863,,,,,,,,,,,,,,,,,,,76.551577599952,76.56618689978495,76.73271629982628,79.20102259982377,SonyLivBundling.jpg,Plan 2,2,2.4571161000058055,None,,,,,,,,85707,001,2025-04-02_18h23.15.142,RES501,2024.2.4,60.00020407209664,2025-04-02 18h23.33.007196 +0530,
1,0,1,,,,,,,,,,1,2.7651245000306517,None,,,,,,,,,,,,,1,0,1,0,79.73170199990273,,,,,,,,,,,,,,,,,,,,82.66797779989429,82.68114099977538,83.19812769978307,83.16660099988803,,,,,,,,,,,,,,,,,,,79.71521169994958,79.73170199990273,79.90050519979559,82.66780229983851,Zee5Bundling.jpg,Plan 1,1,2.7651245000306517,None,,,,,,,,85707,001,2025-04-02_18h23.15.142,RES501,2024.2.4,60.00020407209664,2025-04-02 18h23.33.007196 +0530,
2,0,2,,,,,,,,,,1,3.3082265998236835,None,,,,,,,,,,,,,2,0,2,0,83.19812769978307,,,,,,,,,,,,,,,,,,,,86.69786249985918,86.7140196999535,,87.1979775999207,,,,,,,,,,,,,,,,,,,83.17903689993545,83.19812769978307,83.38131049997173,86.69776919996366,CrunchyrollBundling.jpg,Plan 1,1,3.3082265998236835,None,,,,,,,,85707,001,2025-04-02_18h23.15.142,RES501,2024.2.4,60.00020407209664,2025-04-02 18h23.33.007196 +0530,
3,0,3,,,,,,,,,,2,2.529858099995181,None,,,,,,,,,,,,,3,0,3,0,87.23153599980287,,,,,,,,,,,,,,,,,,,,89.93212379980832,89.9462808999233,90.46439399989322,90.43215609993786,,,,,,,,,,,,,,,,,,,87.21657149982639,87.23153599980287,87.3985028997995,89.9320234998595,AppleOneBundling.jpg,Plan 2,2,2.529858099995181,None,,,,,,,,85707,001,2025-04-02_18h23.15.142,RES501,2024.2.4,60.00020407209664,2025-04-02 18h23.33.007196 +0530,
4,0,4,,,,,,,,,,3,3.0089167000260204,None,,,,,,,,,,,,,4,0,4,0,90.46439399989322,,,,,,,,,,,,,,,,,,,,93.64944059983827,93.66385869984515,,94.16413209983148,,,,,,,,,,,,,,,,,,,90.44678409979679,90.46439399989322,90.6316566998139,93.6492557998281,HotstarBundling.jpg,Plan 3,3,3.0089167000260204,None,,,,,,,,85707,001,2025-04-02_18h23.15.142,RES501,2024.2.4,60.00020407209664,2025-04-02 18h23.33.007196 +0530,
5,0,5,,,,,,,,,,2,3.2878578000236303,None,,,,,,,,,,,,,5,0,5,0,94.1963768999558,,,,,,,,,,,,,,,,,,,,97.66334289987572,97.67843969981186,98.20994709990919,98.1624350999482,,,,,,,,,,,,,,,,,,,94.17661559977569,94.1963768999558,94.36239139991812,97.66318809986115,NetflixBundling.jpg,Plan 2,2,3.2878578000236303,None,,,,,,,,85707,001,2025-04-02_18h23.15.142,RES501,2024.2.4,60.00020407209664,2025-04-02 18h23.33.007196 +0530,
,,,,,,,,,,,,,,,,,,,,,,,,,,,,,,,,,,,,,,,,,,,,,,,,,,,98.19083429989405,98.20994709990919,,98.67767479992472,,,,,,,,,,,,,,,,,,,,,,,,,,,,,,,,,,,85707,001,2025-04-02_18h23.15.142,RES501,2024.2.4,60.00020407209664,2025-04-02 18h23.33.007196 +0530,
,,,,,,,,,,,,,,,,,,,,,,,,,,,,,,,,,,,,,,,,,,,,,,,,,,,,,,,,,,,,,,,,,,,,,,,,,,,,,,,,,,98.67772409995086,98.69464559992775,99.678539799992,101.8615588999819,space,2.1721788998693228,None,85707,001,2025-04-02_18h23.15.142,RES501,2024.2.4,60.00020407209664,2025-04-02 18h23.33.007196 +0530,
